[
  {
    "success": true,
    "timeout": false,
    "failed_images": [],
    "failed_audio": [],
    "failed_video": [],
    "trial_type": "preload",
    "trial_index": 0,
    "plugin_version": "2.0.0",
    "time_elapsed": 80,
    "study": "eyegaze_test",
    "sub": "test_participant_004"
  },
  {
    "trial_type": "html-keyboard-response",
    "trial_index": 1,
    "plugin_version": "2.0.0",
    "time_elapsed": 1962,
    "study": "eyegaze_test",
    "sub": "test_participant_004"
  },
  {
    "task": "pre_block_fixation",
    "block": 1,
    "rt": null,
    "stimulus": "<div style=\"font-size: 60px; line-height: 1; display: flex; align-items: center; justify-content: center; height: 100vh;\">+</div>",
    "response": null,
    "trial_type": "html-keyboard-response",
    "trial_index": 2,
    "plugin_version": "2.0.0",
    "time_elapsed": 2965,
    "study": "eyegaze_test",
    "sub": "test_participant_004"
  },
  {
    "task": "gaze_perception",
    "model": "Dean",
    "gaze": "L5",
    "block_number": 1,
    "rt": 995,
    "stimulus": "images/Dean_L5.png",
    "response": "j",
    "trial_type": "image-keyboard-response",
    "trial_index": 3,
    "plugin_version": "2.0.0",
    "time_elapsed": 3964,
    "study": "eyegaze_test",
    "sub": "test_participant_004"
  },
  {
    "task": "gaze_perception",
    "model": "Dean",
    "gaze": "L30",
    "block_number": 1,
    "rt": 847,
    "stimulus": "images/Dean_L30.png",
    "response": "j",
    "trial_type": "image-keyboard-response",
    "trial_index": 4,
    "plugin_version": "2.0.0",
    "time_elapsed": 5314,
    "study": "eyegaze_test",
    "sub": "test_participant_004"
  },
  {
    "rt": 6557,
    "stimulus": "\n                <h1>Gaze Perception Task</h1>\n                <p>In this task, you will see faces.</p>\n                <p>Your job is to decide if the person is looking <b>at you</b> or <b>away from you</b>.</p>\n                <p>Press <b>F</b> if they are looking at you (Yes).</p>\n                <p>Press <b>J</b> if they are looking away (No).</p>\n                <p>Press the <b>Space bar</b> or click <b>Start</b> to begin.</p>\n                <p><button id=\"start-btn\" class=\"jspsych-btn\" style=\"margin-top: 20px;\">Start</button></p>\n            ",
    "response": " ",
    "trial_type": "html-keyboard-response",
    "trial_index": 5,
    "plugin_version": "2.0.0",
    "time_elapsed": 6643,
    "study": "eyegaze_test",
    "sub": "test_participant_004"
  },
  {
    "task": "pre_block_fixation",
    "block": 2,
    "rt": null,
    "stimulus": "<div style=\"font-size: 60px; line-height: 1; display: flex; align-items: center; justify-content: center; height: 100vh;\">+</div>",
    "response": null,
    "trial_type": "html-keyboard-response",
    "trial_index": 6,
    "plugin_version": "2.0.0",
    "time_elapsed": 7645,
    "study": "eyegaze_test",
    "sub": "test_participant_004"
  },
  {
    "task": "gaze_perception",
    "model": "Raymond",
    "gaze": "L30",
    "block_number": 2,
    "rt": 1091,
    "stimulus": "images/Raymond_L30.png",
    "response": "j",
    "trial_type": "image-keyboard-response",
    "trial_index": 7,
    "plugin_version": "2.0.0",
    "time_elapsed": 8739,
    "study": "eyegaze_test",
    "sub": "test_participant_004"
  },
  {
    "task": "gaze_perception",
    "model": "Raymond",
    "gaze": "Center",
    "block_number": 2,
    "rt": 569,
    "stimulus": "images/Raymond_Center.png",
    "response": "j",
    "trial_type": "image-keyboard-response",
    "trial_index": 8,
    "plugin_version": "2.0.0",
    "time_elapsed": 9811,
    "study": "eyegaze_test",
    "sub": "test_participant_004"
  },
  {
    "rt": 1010,
    "stimulus": "<h1>Block 2 Finished</h1><p>Take a short break.</p><p>Press the <b>Space bar</b> to continue.</p>",
    "response": " ",
    "trial_type": "html-keyboard-response",
    "trial_index": 9,
    "plugin_version": "2.0.0",
    "time_elapsed": 11322,
    "study": "eyegaze_test",
    "sub": "test_participant_004"
  },
  {
    "task": "pre_block_fixation",
    "block": 3,
    "rt": null,
    "stimulus": "<div style=\"font-size: 60px; line-height: 1; display: flex; align-items: center; justify-content: center; height: 100vh;\">+</div>",
    "response": null,
    "trial_type": "html-keyboard-response",
    "trial_index": 10,
    "plugin_version": "2.0.0",
    "time_elapsed": 12324,
    "study": "eyegaze_test",
    "sub": "test_participant_004"
  },
  {
    "task": "gaze_perception",
    "model": "Glo",
    "gaze": "L10",
    "block_number": 3,
    "rt": 827,
    "stimulus": "images/Glo_L10.png",
    "response": "f",
    "trial_type": "image-keyboard-response",
    "trial_index": 11,
    "plugin_version": "2.0.0",
    "time_elapsed": 13155,
    "study": "eyegaze_test",
    "sub": "test_participant_004"
  },
  {
    "task": "gaze_perception",
    "model": "Glo",
    "gaze": "R15",
    "block_number": 3,
    "rt": 697,
    "stimulus": "images/Glo_R15.png",
    "response": "j",
    "trial_type": "image-keyboard-response",
    "trial_index": 12,
    "plugin_version": "2.0.0",
    "time_elapsed": 14356,
    "study": "eyegaze_test",
    "sub": "test_participant_004"
  },
  {
    "rt": 601,
    "stimulus": "<h1>Block 3 Finished</h1><p>Take a short break.</p><p>Press the <b>Space bar</b> to continue.</p>",
    "response": " ",
    "trial_type": "html-keyboard-response",
    "trial_index": 13,
    "plugin_version": "2.0.0",
    "time_elapsed": 15458,
    "study": "eyegaze_test",
    "sub": "test_participant_004"
  },
  {
    "task": "pre_block_fixation",
    "block": 4,
    "rt": null,
    "stimulus": "<div style=\"font-size: 60px; line-height: 1; display: flex; align-items: center; justify-content: center; height: 100vh;\">+</div>",
    "response": null,
    "trial_type": "html-keyboard-response",
    "trial_index": 14,
    "plugin_version": "2.0.0",
    "time_elapsed": 16460,
    "study": "eyegaze_test",
    "sub": "test_participant_004"
  },
  {
    "task": "gaze_perception",
    "model": "Peter",
    "gaze": "R20",
    "block_number": 4,
    "rt": 715,
    "stimulus": "images/Peter_R20.png",
    "response": "j",
    "trial_type": "image-keyboard-response",
    "trial_index": 15,
    "plugin_version": "2.0.0",
    "time_elapsed": 17179,
    "study": "eyegaze_test",
    "sub": "test_participant_004"
  },
  {
    "task": "gaze_perception",
    "model": "Peter",
    "gaze": "R25",
    "block_number": 4,
    "rt": 520,
    "stimulus": "images/Peter_R25.png",
    "response": "j",
    "trial_type": "image-keyboard-response",
    "trial_index": 16,
    "plugin_version": "2.0.0",
    "time_elapsed": 18202,
    "study": "eyegaze_test",
    "sub": "test_participant_004"
  },
  {
    "rt": 563,
    "stimulus": "<h1>Block 4 Finished</h1><p>Take a short break.</p><p>Press the <b>Space bar</b> to continue.</p>",
    "response": " ",
    "trial_type": "html-keyboard-response",
    "trial_index": 17,
    "plugin_version": "2.0.0",
    "time_elapsed": 19269,
    "study": "eyegaze_test",
    "sub": "test_participant_004"
  },
  {
    "task": "pre_block_fixation",
    "block": 5,
    "rt": null,
    "stimulus": "<div style=\"font-size: 60px; line-height: 1; display: flex; align-items: center; justify-content: center; height: 100vh;\">+</div>",
    "response": null,
    "trial_type": "html-keyboard-response",
    "trial_index": 18,
    "plugin_version": "2.0.0",
    "time_elapsed": 20271,
    "study": "eyegaze_test",
    "sub": "test_participant_004"
  },
  {
    "task": "gaze_perception",
    "model": "Mary",
    "gaze": "L15",
    "block_number": 5,
    "rt": 1059,
    "stimulus": "images/Mary_L15.png",
    "response": "j",
    "trial_type": "image-keyboard-response",
    "trial_index": 19,
    "plugin_version": "2.0.0",
    "time_elapsed": 21333,
    "study": "eyegaze_test",
    "sub": "test_participant_004"
  },
  {
    "task": "gaze_perception",
    "model": "Mary",
    "gaze": "L15",
    "block_number": 5,
    "rt": 743,
    "stimulus": "images/Mary_L15.png",
    "response": "f",
    "trial_type": "image-keyboard-response",
    "trial_index": 20,
    "plugin_version": "2.0.0",
    "time_elapsed": 22579,
    "study": "eyegaze_test",
    "sub": "test_participant_004"
  },
  {
    "rt": 522,
    "stimulus": "<h1>Block 5 Finished</h1><p>Take a short break.</p><p>Press the <b>Space bar</b> to continue.</p>",
    "response": " ",
    "trial_type": "html-keyboard-response",
    "trial_index": 21,
    "plugin_version": "2.0.0",
    "time_elapsed": 23603,
    "study": "eyegaze_test",
    "sub": "test_participant_004"
  },
  {
    "task": "pre_block_fixation",
    "block": 6,
    "rt": null,
    "stimulus": "<div style=\"font-size: 60px; line-height: 1; display: flex; align-items: center; justify-content: center; height: 100vh;\">+</div>",
    "response": null,
    "trial_type": "html-keyboard-response",
    "trial_index": 22,
    "plugin_version": "2.0.0",
    "time_elapsed": 24604,
    "study": "eyegaze_test",
    "sub": "test_participant_004"
  },
  {
    "task": "gaze_perception",
    "model": "Oli",
    "gaze": "L15",
    "block_number": 6,
    "rt": 948,
    "stimulus": "images/Oli_L15.png",
    "response": "j",
    "trial_type": "image-keyboard-response",
    "trial_index": 23,
    "plugin_version": "2.0.0",
    "time_elapsed": 25555,
    "study": "eyegaze_test",
    "sub": "test_participant_004"
  },
  {
    "task": "gaze_perception",
    "model": "Oli",
    "gaze": "R15",
    "block_number": 6,
    "rt": 537,
    "stimulus": "images/Oli_R15.png",
    "response": "j",
    "trial_type": "image-keyboard-response",
    "trial_index": 24,
    "plugin_version": "2.0.0",
    "time_elapsed": 26595,
    "study": "eyegaze_test",
    "sub": "test_participant_004"
  }
]